File: data/raw/VuSitu_Log_2024-02-22_11-57-16_Full_pipe_Log_2024-02-22.csv
Date Time,Turbidity (NTU) (1097523),pH (pH) (687158),pH mV (mV) (687158),ORP (mV) (687158),Actual Conductivity (µS/cm) (699940),Specific Conductivity (µS/cm) (699940),Salinity (PSU) (699940),Resistivity (Ω⋅cm) (699940),Density (g/cm³) (699940),Total Dissolved Solids (ppt) (699940),Temperature (°C) (702575),External Voltage (V) (702575),Battery Capacity (%) (702575),Barometric Pressure (mm Hg) (702575),Pressure (psi) (692717),Depth (ft)
2/22/2024 11:57,113.626,8.496539,-85.21557,247.412,797.577,1014.12,0.5039695,1253.8,0.999663,0.6591751,13.8207,0.009,87,759.6451,0.151282,0.248806
2/23/2024 6:27,297.574,8.481293,-83.88996,252.948,777.1802,1027,0.509431,1286.7,0.999867,0.667549,12.2643,0,86,755.737,0.1872654,0.349815
2/24/2024 0:57,56.3915,8.4878,-84.30004,240.881,838.6589,1104.32,0.5495229,1192.38,0.9998814,0.7178055,12.4051,0,86,754.0196,0.169013,0.293231
2/24/2024 19:27,80.18685,8.487206,-84.84602,246.019,900.236,1129.6,0.5642379,1110.82,0.999632,0.7342393,14.3692,0,86,754.8672,0.129383,0.195519
2/25/2024 13:57,45.39223,8.482615,-84.7006,240.55,937.9909,1165.91,0.583429,1066.11,0.9995889,0.7578402,14.7652,0,86,754.65,0.105089,0.1423
2/26/2024 8:27,34.8544,8.476901,-83.48465,246.925,896.103,1200.34,0.598667,1115.94,0.999998,0.7802212,11.7299,0,86,755.3247,0.169288,0.284446
2/27/2024 2:57,105.339,8.477558,-83.77791,251.92,914.543,1198.26,0.5984923,1093.44,0.999895,0.7788665,12.6036,0,86,753.225,0.133516,0.202484
2/27/2024 21:27,25.8187,8.479669,-84.1999,257.876,914.0373,1167.51,0.583411,1094.05,0.9997504,0.7588825,13.6332,0,85,754.0421,0.124854,0.20504
2/28/2024 15:57,35.8388,8.47586,-84.39541,252.373,1015.44,1253.97,0.6296515,984.797,0.999583,0.8150773,15.0409,0,85,754.4171,0.08336449,0.09661665
2/29/2024 10:27,13.9533,8.472529,-83.66347,259.712,982.712,1269.02,0.635976,1017.592,0.99985,0.8248635,13.1878,0,85,758.452,0.09073925,0.10163
3/1/2024 4:57,21.31466,8.470604,-83.57048,256.286,965.582,1245.18,0.623571,1035.65,0.999833,0.8093654,13.2438,0,85,756.555,0.117701,0.165795
3/1/2024 23:27,119.994,8.47456,-83.97102,256.4788,899.879,1143.53,0.571096,1111.26,0.999712,0.743293,13.8446,0,85,754.657,0.1008749,0.149012
3/2/2024 17:57,83.45864,8.496834,-85.33716,242.486,933.525,1176.89,0.588725,1071.21,0.9996793,0.764978,14.1735,0,85,753.6971,0.111124,0.146188
3/3/2024 12:27,22.9559,8.48809,-84.73158,247.149,923.79,1174.87,0.587388,1082.5,0.9997291,0.7636655,13.8111,0,84,755.7822,0.115586,0.166265
3/4/2024 6:57,24.0813,8.477861,-83.48465,251.498,882.684,1187.989,0.5920458,1132.908,1.00001,0.772193,11.54487,0,84,757.042,0.1508789,0.2578664
3/5/2024 1:27,17.338,8.483747,-84.04255,250.399,926.616,1223.043,0.6111025,1079.2,0.9999408,0.794978,12.3106,0,84,756.232,0.13252,0.212202
3/5/2024 19:57,32.27941,8.484466,-84.43594,251.753,961.199,1231.51,0.6166769,1040.37,0.9997931,0.800484,13.5079,0,84,754.065,0.09761047,0.11549
3/6/2024 14:27,21.0855,8.483393,-84.37157,255.921,946.0784,1212.48,0.606734,1056.99,0.999787,0.7881143,13.4964,0,84,749.084,0.0853109,0.10695
3/7/2024 8:57,13.0657,8.485956,-84.30719,260.6869,922.212,1202.88,0.6010771,1084.349,0.999875,0.781875,12.7836,0,83,753.615,0.1082983,0.1491462
3/8/2024 3:27,40.649,8.47825,-83.6492,263.767,941.3032,1251.25,0.625501,1062.36,0.999985,0.8133156,12.0308,0,83,755.6398,0.125435,0.143176
3/8/2024 21:57,26.2927,8.473179,-83.66347,266.178,978.284,1267.25,0.6349286,1022.2,0.999866,0.823714,13.0614,0,83,757.8974,0.104104,0.128216
3/9/2024 16:27,9.146883,8.482397,-84.7507,267.0455,1025.26,1267.98,0.6369504,975.3635,0.999598,0.824188,14.9778,0,83,756.0823,0.06257725,0.0534684
3/10/2024 10:57,8.214031,8.493216,-84.98192,267.179,1002.74,1279.64,0.6419816,997.2709,0.999791,0.8317636,13.6707,0,83,757.2598,0.08440399,0.09039339
3/11/2024 5:27,9.163502,8.475999,-83.48703,267.5104,954.5842,1272.74,0.63657,1047.58,1.00001,0.827281,11.9122,0,83,755.5272,0.135295,0.208232
3/11/2024 23:57,15.3048,8.483934,-84.2023,266.6354,987.4058,1286.853,0.6449284,1012.75,0.999905,0.836454,12.8169,0,82,757.7549,0.09844494,0.142166
3/12/2024 18:27,7.518,8.47666,-84.30004,268.407,1038.45,1297.12,0.6519046,962.9719,0.999672,0.843126,14.5594,0,82,756.5848,0.0581493,0.0199206
3/13/2024 12:57,6.12612,8.491639,-85.19173,267.715,1046.21,1302.98,0.655078,955.8271,0.999657,0.8469343,14.6828,0,82,754.785,0.0481405,0.0237241
3/14/2024 7:27,5.24862,8.476822,-83.30107,266.28,941.786,1281.572,0.6402061,1061.812,1.0001,0.8330218,11.1187,0,82,750.9819,0.129299,0.190468
3/15/2024 1:57,7.21245,8.47558,-83.21524,265.6889,966.5001,1317.051,0.658631,1034.661,1.00012,0.856083,11.0647,0,82,749.3842,0.135209,0.218259
3/15/2024 20:27,7.27123,8.468014,-83.32729,269.3534,1013.18,1317.25,0.6609336,986.99,0.9999051,0.8562107,12.9144,0,82,752.1144,0.08677006,0.11959
3/16/2024 14:57,8.287506,8.49153,-85.03676,268.7049,1020.19,1285.943,0.6457323,980.2089,0.9997225,0.835863,14.1801,0,81,754.7472,0.0478468,-1.20E-05
3/17/2024 9:27,5.290998,8.472073,-83.36305,268.018,975.1995,1289.2,0.6455439,1025.43,0.9999751,0.8379812,12.248,0,81,755.76,0.0790215,0.08741689
3/18/2024 3:57,5.529615,8.465745,-83.00543,268.1923,1006.75,1330.82,0.6673082,993.298,0.999992,0.865036,12.2505,0,81,754.8972,0.105228,0.158526
3/18/2024 22:27,5.815676,8.453931,-82.78609,269.0673,1046.3,1330.74,0.66889,955.749,0.9997926,0.8649783,13.8092,0,81,755.6398,0.094821,0.130541
3/19/2024 16:57,9.767817,8.459418,-83.57764,223.618,1062.342,1298.93,0.65354,941.3164,0.9995359,0.844306,15.4637,0,81,753.5021,0.0500193,0.0321574
3/20/2024 11:27,3.83087,8.479574,-84.44309,267.637,1066.65,1334.86,0.671654,937.5187,0.9996994,0.8676613,14.4799,0,80,754.7472,0.06244564,0.05725226
3/21/2024 5:57,4.742493,8.46678,-83.0388,268.886,1013.34,1342.47,0.6733011,986.84,1.00001,0.8726048,12.1639,0,80,755.992,0.1204834,0.171299
3/22/2024 0:27,5.39929,8.45538,-82.7718,228.779,1044.954,1339.94,0.673398,956.9799,0.999842,0.870962,13.4738,0,80,756.6223,0.0959759,0.133855
3/22/2024 18:57,5.548975,8.457392,-83.28438,208.964,1077.08,1336.08,0.6725998,928.4323,0.999645,0.868453,14.8509,0,80,753.982,0.0659142,0.03784252
3/23/2024 13:27,5.75823,8.508345,-86.1621,202.656,1029.38,1280.35,0.6432526,971.4619,0.999639,0.8322276,14.7372,0,80,751.979,0.05378437,0.008724281
3/24/2024 7:57,6.2173,8.483577,-83.97102,268.991,980.081,1300.51,0.6512827,1020.32,0.999997,0.845331,12.1002,0,80,751.6344,0.1140995,0.163812
3/25/2024 2:27,5.35131,8.470464,-83.3416,271.523,1015.9,1334.97,0.669747,984.344,0.999965,0.8677282,12.4867,0,79,752.992,0.111358,0.143816
3/25/2024 20:57,5.447193,8.472431,-83.6134,275.0492,1025.81,1329.66,0.6675647,974.8435,0.9998948,0.864282,13.0354,0,79,755.0397,0.08013725,0.0884464
3/26/2024 15:27,6.740026,8.483458,-84.70773,282.7239,1062.73,1325.34,0.6667712,940.9716,0.9996741,0.8614684,14.6261,0,79,756.2548,0.0327625,-0.024829
3/27/2024 9:57,4.25497,8.488834,-84.44786,256.2499,1019.36,1332.143,0.6685127,981.0064,0.9999371,0.865893,12.707,0,79,759.3975,0.08451271,0.09005341
3/28/2024 4:27,4.7599,8.460878,-82.83138,276.191,1020.43,1337.08,0.67098,979.983,0.9999522,0.8690999,12.6009,0,79,757.0498,0.08820534,0.109792
3/28/2024 22:57,4.44334,8.463872,-82.99351,290.213,1018.59,1335.54,0.6701478,981.754,0.999955,0.8681035,12.5746,0,78,754.2071,0.0887213,0.09652912
3/29/2024 17:27,9.232499,8.46263,-82.91721,294.919,1001.32,1313.57,0.6586223,998.685,0.9999483,0.85382,12.5543,0,78,748.4166,0.0682631,0.04882306
3/30/2024 11:57,19.6383,8.51314,-86.02142,276.892,955.993,1229.43,0.615453,1046.03,0.9998124,0.7991309,13.35547,0,78,745.589,0.075964,0.06330697
3/31/2024 6:27,67.0217,8.501261,-84.98192,284.5454,800.737,1061.62,0.5271906,1248.85,0.9998962,0.690056,12.1338,0,78,747.457,0.160681,0.2817156
4/1/2024 0:57,38.42177,8.511454,-85.69479,294.94,856.126,1122.18,0.5589504,1168.05,0.999867,0.7294202,12.5869,0,78,750.2393,0.136745,0.222583
4/1/2024 19:27,69.79591,8.508008,-86.01427,297.0791,921.4845,1157.98,0.5789682,1085.21,0.9996526,0.7526846,14.3074,0,77,757.545,0.09236717,0.11038
4/2/2024 13:57,48.37614,8.519014,-87.09431,250.971,972.4049,1179.49,0.5911836,1028.38,0.999433,0.766667,15.80785,0,77,760.793,0.0566568,0.0201556
4/3/2024 8:27,41.0233,8.503086,-85.18457,300.3979,918.601,1207.71,0.6032762,1088.61,0.999916,0.785009,12.4668,0,77,759.2625,0.125719,0.20836
4/4/2024 2:57,37.3734,8.514058,-85.99281,296.3996,950.7531,1230.8,0.615919,1051.8,0.9998479,0.800021,13.0873,0,77,752.452,0.119804,0.1921934
4/4/2024 21:27,17.1196,8.505122,-85.1035,296.0205,914.764,1222.86,0.6104668,1093.18,0.9999987,0.7948602,11.809,0,77,752.3469,0.1392355,0.211534
4/5/2024 15:57,898.752,8.533149,-86.8726,290.921,929.367,1223.45,0.611423,1076,0.9999285,0.7952424,12.4151,0,77,754.6722,0.08999729,0.108381
4/6/2024 10:27,779.1242,8.515223,-85.47306,294.3897,916.705,1246.8,0.62213,1090.86,1.00008,0.8104203,11.1386,0,76,761.8277,0.102234,0.153234
4/7/2024 4:57,1000.48,8.507116,-84.9652,297.9064,926.2031,1265.272,0.6315264,1079.68,1.00011,0.8224268,10.9696,0,76,757.9424,0.128048,0.192249
4/7/2024 23:27,7.887153,8.503539,-85.14166,296.5498,963.076,1273.53,0.6373483,1038.34,0.99997,0.8277943,12.237,0,76,755.5872,0.105007,0.141135
4/8/2024 17:57,4.725782,8.505793,-85.73055,295.308,1001.67,1274.86,0.639579,998.3329,0.9997737,0.8286574,13.7807,0,76,754.8597,0.06481838,0.06922117
4/9/2024 12:27,3.88365,8.506201,-85.988,295.4483,1025.64,1280.95,0.643434,975.002,0.999665,0.8326206,14.5646,0,76,756.772,0.04673004,0.0158756
4/10/2024 6:57,4.71463,8.49651,-84.73634,304.036,979.283,1295.76,0.6489305,1021.16,0.999982,0.8422445,12.2125,0,75,755.7672,0.112911,0.1635
4/11/2024 1:27,6.306933,8.481138,-84.24282,294.106,1020.78,1308.28,0.656817,979.6417,0.999826,0.8503812,13.4946,0,75,753.067,0.101791,0.143082
4/11/2024 19:57,12.4936,8.478484,-84.57661,211.21,1061.03,1306.99,0.657542,942.4845,0.999588,0.849542,15.1471,0,75,749.722,0.051569,0.008788911
4/12/2024 14:27,16.1151,8.510665,-86.03334,212.8005,1031.64,1310.29,0.6582196,969.335,0.9997764,0.851691,13.86551,0,75,751.8519,0.0680761,0.04159988
4/13/2024 8:57,461.493,8.51191,-85.91652,169.4274,950.8548,1226.31,0.613718,1051.69,0.9998264,0.797102,13.2397,0,75,753.607,0.12085,0.179782
4/14/2024 3:27,430.7067,8.508945,-85.46829,266.545,911.16,1202.798,0.6005574,1097.5,0.999933,0.7818187,12.3054,0,74,755.512,0.121531,0.171911
4/14/2024 21:57,415.0648,8.537425,-87.30888,193.5935,885.253,1147.037,0.5722666,1129.62,0.9998187,0.745574,13.051,0,74,757.222,0.114581,0.179239
4/15/2024 16:27,508.4707,8.536905,-87.89778,208.776,949.8968,1171.98,0.5868085,1052.746,0.999544,0.7617875,15.0788,0,74,756.24,0.0699711,0.0508414
4/16/2024 10:57,575.6321,8.528025,-87.09431,208.573,948.425,1197.68,0.599515,1054.38,0.999698,0.7784918,14.104,0,74,755.737,0.06443596,0.03618
4/17/2024 5:27,994.914,8.505487,-85.51121,205.088,943.3169,1220.65,0.6106406,1060.09,0.999842,0.7934236,13.1046,0,74,754.305,0.119535,0.1880047
4/17/2024 23:57,993.743,8.502039,-85.70671,260.465,987.5367,1237.7,0.6206688,1012.62,0.9996689,0.804504,14.4179,0,74,753.982,0.08874798,0.110577
4/18/2024 18:27,1018.74,8.511762,-86.3862,272.6078,1004,1245.93,0.6252942,996.017,0.9996111,0.8098569,14.8335,0,73,753.082,0.0565338,0.0179869
4/19/2024 12:57,1044.68,8.533445,-87.6689,198.202,989.95,1224.335,0.6140946,1010.15,0.999581,0.795818,14.9771,0,73,753.87,0.06003666,0.0272311
4/20/2024 7:27,956.6741,8.515354,-86.15256,213.084,966.7459,1242.7,0.6223972,1034.398,0.9998154,0.807755,13.3738,0,73,755.8122,0.102683,0.131526
4/21/2024 1:57,972.925,8.507676,-85.70671,208.735,990.7964,1274.59,0.639039,1009.29,0.999832,0.8284866,13.34253,0,73,754.515,0.09527874,0.126227
4/21/2024 20:27,1019.96,8.504596,-86.0739,268.836,1038.501,1278.88,0.6427998,962.9264,0.9995751,0.831275,15.159,0,73,752.2044,0.0553427,0.02033736
4/22/2024 14:57,1004.3,8.529893,-87.34941,223.42,995.5964,1242.57,0.6233548,1004.42,0.9996453,0.807672,14.5936,0,72,752.234,0.06691074,0.05173185
4/23/2024 9:27,586.9728,8.521106,-86.55786,198.476,1008.85,1288.61,0.646647,991.2279,0.9997993,0.8375992,13.6333,0,72,755.3772,0.0899601,0.100625
4/24/2024 3:57,613.5243,8.509726,-85.4039,273.273,972.784,1295.99,0.648742,1027.98,1.00001,0.8423962,11.9428,0,72,756.0673,0.121122,0.173533
4/24/2024 22:27,608.6291,8.505627,-85.55412,212.021,1004.54,1296.12,0.650187,995.476,0.999857,0.8424799,13.2219,0,72,756.4498,0.0893469,0.0969205
4/25/2024 16:57,565.9174,8.514052,-86.3981,266.2468,1015.12,1271.67,0.6384682,985.1046,0.9996798,0.8265872,14.4375,0,72,755.4972,0.03969288,-0.009876462
4/26/2024 11:27,551.3301,8.51413,-86.49826,183.382,1048.339,1303.35,0.655333,953.89,0.9996459,0.8471784,14.7561,0,72,754.755,0.03925705,-0.0144002
4/27/2024 5:57,606.59,8.514035,-85.8974,184.872,1002.94,1308.49,0.656203,997.067,0.9999191,0.850521,12.7741,0,71,754.7247,0.10526,0.130383
4/28/2024 0:27,838.818,8.502785,-85.2895,222.175,1007.54,1311.17,0.6577107,992.5172,0.9999075,0.85226,12.8758,0,71,755.8122,0.0954981,0.114786
4/28/2024 18:57,625.8001,8.506389,-86.01427,257.692,1053.99,1314.74,0.661199,948.773,0.999671,0.854581,14.6165,0,71,753.8246,0.05587387,0.02815723
4/29/2024 13:27,636.486,8.506649,-86.2789,263.1569,1045,1278.08,0.642582,956.94,0.999529,0.830749,15.452,0,71,752.692,0.0293646,-0.0294722
4/30/2024 7:57,620.9119,8.510189,-85.65665,185.118,1009.603,1319.66,0.661967,990.488,0.999933,0.8577786,12.6989,0,71,752.4745,0.0993786,0.125551
5/1/2024 2:27,607.485,8.502546,-85.1393,263.705,1002.97,1320.27,0.6619737,997.0381,0.9999675,0.858173,12.4175,0,70,751.3194,0.112209,0.170353
5/1/2024 20:57,606.1199,8.494655,-85.12974,261.97,1019.73,1294.31,0.649864,980.6521,0.999766,0.8412984,13.8931,0,70,751.627,0.06844139,0.064503
5/2/2024 15:27,473.494,8.487132,-85.2871,261.9171,1054.64,1277.15,0.642381,948.191,0.999461,0.8301489,15.8783,0,70,750.8619,0.003116608,-0.107257
5/3/2024 9:57,158.246,8.501849,-85.4564,262.02,1037.27,1325.53,0.665973,964.0733,0.999817,0.8615927,13.6142,0,70,752.7895,0.0555382,0.03530145
5/4/2024 4:27,163.906,8.504219,-85.38246,263.648,1019.91,1325.99,0.6655108,980.481,0.9999086,0.8618912,12.9146,0,70,751.6194,0.09173107,0.108747
5/4/2024 22:57,176.855,8.510157,-85.7544,259.483,991.6562,1285.54,0.644458,1008.414,0.9998773,0.8355982,13.03117,0,70,753.082,0.0899229,0.1012441
5/5/2024 17:27,125.096,8.504527,-85.578,219.738,1003.41,1285.5,0.644902,996.603,0.999815,0.835573,13.511,0,69,755.2947,0.05373478,0.0102104
5/6/2024 11:57,136.958,8.495742,-85.2108,211.16,1048.05,1328.18,0.6676836,954.1528,0.999771,0.8633147,13.9576,0,69,755.6847,0.0361338,-0.0170914
5/7/2024 6:27,120.068,8.500144,-84.8031,250.061,994.432,1331.53,0.6670684,1005.6,1.00005,0.8654917,11.7454,0,69,753.307,0.107424,0.136894
5/8/2024 0:57,105.719,8.50466,-85.30855,261.924,1014.93,1330.46,0.667493,985.2897,0.999952,0.864796,12.5834,0,69,751.2519,0.0821648,0.0763188
5/8/2024 19:27,108.626,8.48541,-84.9056,256.529,1077.99,1335.07,0.67212,927.6552,0.9996345,0.867793,14.9183,0,69,749.8418,0.03424263,-0.003886946
5/9/2024 13:57,120.477,8.487332,-85.27279,257.962,1099.3,1333.93,0.672165,909.6685,0.999498,0.867053,15.791,0,68,752.632,0.00058651,-0.08327317
5/10/2024 8:27,112.5187,8.493576,-84.74827,260.1075,1023.42,1333.91,0.6695537,977.1159,0.9999246,0.867042,12.8133,0,68,754.0871,0.0736227,0.08607889
5/11/2024 2:57,101.36,8.495796,-84.88893,261.879,1025.26,1334.671,0.6700055,975.358,0.999919,0.8675362,12.8627,0,68,753.03,0.0965662,0.110974
5/11/2024 21:27,99.1404,8.48753,-84.92947,257.671,1071.13,1337,0.672869,933.5972,0.9996844,0.8690508,14.5885,0,68,753.21,0.0448256,-0.006924457
5/12/2024 15:57,70.14881,8.499125,-85.7544,257.797,1084.75,1336.52,0.6730526,921.875,0.9996018,0.8687356,15.1373,0,68,752.309,0.0160599,-0.0462678
5/13/2024 10:27,74.38467,8.500329,-85.41823,259.726,1049.82,1336.27,0.6717645,952.5483,0.9997993,0.8685769,13.7764,0,67,754.2371,0.0459452,-0.005610461
5/14/2024 4:57,87.7443,8.504359,-85.45399,258.7414,1032.7,1335.56,0.670748,968.333,0.9998853,0.868111,13.1276,0,67,752.9395,0.0740356,0.0852816
5/14/2024 23:27,238.296,8.493494,-85.0201,261.2257,1020.63,1300.08,0.6527583,979.788,0.9997887,0.8450538,13.74603,0,67,752.819,0.0600929,0.0300977
5/15/2024 17:57,184.584,8.501133,-85.73294,260.3674,1073.38,1336.92,0.6729031,931.633,0.999671,0.869,14.6794,0,67,752.3469,0.0278149,-0.0484967
5/16/2024 12:27,120.078,8.492353,-85.4301,261.1637,1088.588,1334.57,0.672187,918.621,0.999568,0.867468,15.3501,0,67,753.7495,0.0205822,-0.0592855
5/17/2024 6:57,107.2326,8.495615,-85.21557,262.907,1030.596,1304.78,0.6554475,970.3124,0.9997558,0.848107,13.998,0,66,754.3271,0.0574713,0.01829032
5/18/2024 1:27,88.16498,8.493235,-85.12259,259.678,1056.76,1333.26,0.670518,946.2928,0.9997472,0.8666185,14.1419,0,66,753.532,0.0570755,0.0288219
5/18/2024 19:58,95.33395,8.496872,-85.36577,259.316,1062.63,1336.78,0.6724742,941.0612,0.9997314,0.868908,14.2627,0,66,755.197,0.04724121,0.0230363
5/19/2024 14:28,102.146,8.494249,-85.53505,263.991,1088.93,1335.37,0.6726,918.33,0.9995703,0.867989,15.338,0,66,755.2797,0.0131874,-0.0833285
5/20/2024 8:58,394.75,8.504931,-85.55174,264.976,1038.45,1335.78,0.6710901,962.971,0.999857,0.8682598,13.3461,0,66,755.7747,0.06905937,0.0708029
5/21/2024 3:28,261.291,8.494997,-84.9247,267.1981,1031.37,1333.553,0.6697069,969.583,0.999883,0.8668094,13.1362,0,65,753.6896,0.0792942,0.0725717
5/21/2024 21:58,118.704,8.493399,-85.13451,264.225,1058.5,1335.19,0.671538,944.7292,0.9997467,0.8678719,14.1506,0,65,753.5771,0.04846096,0.006620139
5/22/2024 16:28,132.291,8.488739,-85.2108,263.5455,1090.018,1337.64,0.673771,917.4161,0.9995759,0.869464,15.308,0,65,753.1645,0.012373,-0.05950195
5/23/2024 10:58,107.455,8.501394,-85.61611,265.2359,1043.08,1312.99,0.659964,958.6986,0.9997254,0.853445,14.2372,0,65,753.6971,0.0358734,-0.0220926
5/24/2024 5:28,156.579,8.496455,-84.9891,266.335,1029.86,1333.65,0.669693,971.005,0.999891,0.8668723,13.0739,0,65,753.067,0.0813265,0.102545
5/24/2024 23:58,307.3594,8.496384,-85.19411,260.584,1047.79,1333.64,0.6703852,954.386,0.999798,0.8668664,13.7782,0,64,754.2071,0.05741787,0.0252386
5/25/2024 18:28,283.8906,8.490873,-85.18219,262.4583,1078.92,1340.02,0.6746287,926.856,0.9996545,0.871014,14.7984,0,64,754.47,0.03242302,-0.008512545
5/26/2024 12:58,6.767773,8.494588,-85.49452,266.099,1044.036,1286.4,0.6467255,957.821,0.9995817,0.8361593,15.1359,0,64,755.7822,0.0103474,-0.0578622
5/27/2024 7:28,6.837154,8.49703,-85.10113,269.599,1035.08,1331.6,0.668891,966.1111,0.9998558,0.8655393,13.34133,0,64,756.3373,0.05683613,0.0177478
5/28/2024 1:58,7.650812,8.49758,-85.2537,267.172,1044.99,1331.01,0.6689774,956.947,0.9998009,0.8651562,13.74927,0,64,755.535,0.0428123,0.008784108
5/28/2024 20:28,7.442923,8.485623,-84.7578,264.609,1067.3,1339,0.673739,936.9415,0.999716,0.8703509,14.3764,0,64,756.135,0.03139496,-0.0217396
5/29/2024 14:58,8.045901,8.47792,-84.83649,263.1998,1110.49,1336.6,0.6738044,900.5046,0.999442,0.868788,16.1431,0,63,754.252,-0.0171404,-0.1275571
5/30/2024 9:28,10.7287,8.482023,-84.32626,264.2751,1022.98,1307.49,0.6565103,977.5364,0.9998106,0.8498675,13.6074,0,63,754.2746,0.03804016,0.007333181
5/31/2024 3:58,8.270959,8.493948,-84.9319,266.023,1034.84,1330.64,0.668405,966.337,0.999853,0.864913,13.3613,0.009,63,751.9569,0.05459404,0.020235
5/31/2024 22:28,4.20319,8.487512,-84.6434,267.3435,1045.9,1336.25,0.6716076,956.1147,0.99982,0.868563,13.6237,0,63,752.9545,0.0577793,0.0230569
6/1/2024 16:58,4.20182,8.500518,-85.67572,260.9515,1068.2,1332.82,0.670684,936.1547,0.99968,0.866331,14.6052,0,63,752.857,0.0211735,-0.04341859
6/2/2024 11:28,4.188347,8.489147,-85.14166,261.879,1077.18,1331.65,0.6703847,928.348,0.9996215,0.865573,14.9952,0,62,753.652,0.008346558,-0.07348371
6/3/2024 5:58,4.15237,8.498492,-85.22749,264.94,1037.29,1329.69,0.668035,964.052,0.9998358,0.8643008,13.4867,0,62,752.407,0.0565577,0.0211713
6/4/2024 0:28,4.71102,8.480634,-84.62906,260.715,1075.843,1332.77,0.670903,929.504,0.9996353,0.8663,14.907,0,62,750.6143,0.03006363,-0.034175
6/4/2024 18:58,8.964705,8.472119,-84.5265,255.535,1109.6,1333.1,0.6720136,901.2292,0.999427,0.866514,16.22216,0,62,749.992,0.013711,-0.05286058
6/5/2024 13:28,4.351336,8.473071,-84.67674,259.3136,1117.44,1332.53,0.6719152,894.903,0.9993722,0.866143,16.549,0,62,751.9644,0.003472328,-0.07649075
6/6/2024 7:58,4.07972,8.4843,-84.81979,260.8752,1070.83,1328.58,0.6686498,933.8586,0.999643,0.8635761,14.8426,0,61,752.422,0.03889084,-0.0199975
6/7/2024 2:28,6.971348,8.474313,-84.1117,261.846,1061.57,1331.9,0.670009,941.9967,0.9997136,0.865738,14.3736,0,61,750.9893,0.0600691,0.05694981
6/7/2024 20:58,5.25521,8.477414,-84.58853,257.6375,1091.43,1336.59,0.673287,916.231,0.9995617,0.8687846,15.3966,0,61,752.467,0.0283012,-0.0416927
6/8/2024 15:28,5.192103,8.486037,-85.1679,260.086,1093.28,1329.82,0.669934,914.6808,0.9995131,0.8643857,15.687,0,61,753.3895,0.01951027,-0.0618096
6/9/2024 9:58,4.398044,8.490054,-85.1321,261.805,1071.42,1331.06,0.6699084,933.3396,0.9996525,0.865187,14.7874,0,61,754.2821,0.0343657,-0.004782036
6/10/2024 4:28,5.250028,8.48574,-84.77927,262.921,1056.36,1323.68,0.665736,946.646,0.9997026,0.8603924,14.4266,0,60,753.427,0.0513248,0.0244551
6/10/2024 22:58,4.6353,8.485907,-84.97238,261.517,809.5719,999.5416,0.497184,1235.22,0.9994793,0.6497021,15.0494,0,60,752.4895,0.03408432,-0.03509853
6/11/2024 17:28,3.982401,8.48555,-85.19888,260.6678,894.4865,1082.99,0.5409195,1117.96,0.9993813,0.703944,15.88699,0,60,751.274,0.01713562,-0.0641538
6/12/2024 11:58,4.26967,8.487198,-85.15358,261.781,1076.747,1318.1,0.6635765,928.7233,0.9995516,0.856767,15.4132,0,60,754.59,0.0198326,-0.0388591
6/13/2024 6:28,9.91412,8.483886,-84.8222,261.0111,1070.24,1325.06,0.6668714,934.367,0.9996284,0.861289,14.93162,0,59,754.0871,0.0448666,-0.00325177
6/14/2024 0:58,3.8405,8.487698,-84.98669,264.3013,1017.43,1265.08,0.6352617,982.8671,0.999631,0.822304,14.7508,0,59,753.795,0.0398703,-0.0105152
6/14/2024 19:28,3.44056,8.474046,-84.6648,259.3589,1074.14,1287.7,0.6481932,930.981,0.9993931,0.8370053,16.31677,0,59,752.947,0.0214863,-0.0368242
6/15/2024 13:58,4.03304,8.483367,-85.3705,255.4083,618.758,732.0823,0.360499,1616.14,0.999073,0.475853,16.89544,0,59,750.5693,0.005224228,-0.09179411
6/16/2024 8:28,4.275303,8.480147,-84.3668,259.1729,923.4886,1166.05,0.583028,1082.85,0.9996841,0.757935,14.1088,0,59,749.6392,0.06918049,0.04576898
6/17/2024 2:58,4.944118,8.482692,-84.50985,261.3306,975.0352,1231.341,0.617093,1025.604,0.9997114,0.800372,14.102,0,58,748.6042,0.06832123,0.0454971
6/17/2024 21:28,3.35234,8.475234,-84.30243,257.409,501.246,621.8552,0.303963,1995.03,0.999361,0.4042059,14.8455,0,58,748.6492,0.0578136,0.0230873
6/18/2024 15:58,3.83681,8.468342,-84.47409,253.148,231.909,275.059,0.131777,4312.04,0.9989155,0.178788,16.7865,0,58,748.514,0.006425858,-0.09783885
6/19/2024 10:28,3.860604,8.483081,-84.73396,260.9086,387.5554,481.4623,0.233491,2580.28,0.9993145,0.312951,14.7882,0,58,751.7319,0.0375071,-0.0266412
6/20/2024 4:58,4.41887,8.494854,-84.88893,262.8112,328.259,425.416,0.205181,3046.37,0.9995339,0.276521,13.0429,0,58,750.5243,0.08239746,0.09014145
6/20/2024 23:28,4.646952,8.486452,-84.71012,260.749,527.9901,667.5503,0.32677,1893.97,0.999493,0.433908,14.0543,0,57,749.924,0.06518364,0.0436506
6/21/2024 17:58,3.59622,8.479167,-84.83171,256.698,292.647,354.35,0.170637,3417.09,0.999096,0.230327,15.8833,0,57,749.1292,0.0199041,-0.05725176
6/22/2024 12:28,3.680769,8.470733,-84.4574,258.0881,530.7935,637.1862,0.312121,1883.97,0.999144,0.414171,16.258,0,57,750.824,0.003351212,-0.103546
6/23/2024 6:58,4.706615,8.472931,-83.96149,261.7073,633.2293,799.1597,0.393704,1579.21,0.9995343,0.5194538,14.1293,0,57,751.9194,0.05933094,0.0256089
6/24/2024 1:28,4.04519,8.447361,-83.20093,260.2935,460.368,548.8895,0.2676508,2172.18,0.99906,0.356778,16.5563,0,57,751.6194,0.03415966,-0.009900264
6/24/2024 19:58,8.965276,8.444965,-83.40359,257.1845,238.853,277.285,0.132939,4186.678,0.998747,0.180235,17.7434,0,56,751.5144,0.0196238,-0.06079329
6/25/2024 14:28,4.342574,8.461156,-84.54561,222.857,576.2403,658.5079,0.3233902,1735.39,0.9987599,0.4280301,18.4591,0,56,753.097,-0.00254631,-0.1100412
6/26/2024 8:58,3.52055,8.463596,-83.97579,153.136,994.1346,1200.2,0.6021325,1005.9,0.9994082,0.7801303,16.01084,0,56,754.2746,0.04462242,-0.006542272
6/27/2024 3:28,4.55207,8.473945,-84.34534,159.526,670.3151,823.821,0.406821,1491.84,0.9993795,0.5354839,15.2443,0,56,751.9045,0.0673704,0.04573064
6/27/2024 21:58,4.915666,8.476395,-84.56946,167.606,252.596,308.369,0.14797,3958.89,0.9991346,0.20044,15.53061,0,56,750.1342,0.05662632,0.0256004
6/28/2024 16:28,5.544403,8.46478,-84.20706,157.363,627.604,748.0002,0.3685287,1593.36,0.999135,0.4862,16.5729,0,55,750.374,0.02323246,-0.03834274
6/29/2024 10:58,4.645407,8.477734,-84.68866,123.9872,1041.47,1267.14,0.636997,960.1792,0.999489,0.8236433,15.6757,0,55,753.157,0.0418043,-0.005851346
6/30/2024 5:28,13.2376,8.470275,-83.847,113.137,1024.83,1289.44,0.6476282,975.768,0.9997131,0.838135,14.25605,0,55,752.5345,0.0851707,0.09232046
6/30/2024 23:58,7.9247,8.465511,-83.99725,128.829,280.091,340.5355,0.1638043,3570.27,0.9991189,0.221348,15.7069,0,55,752.407,0.05505848,0.0233431
7/1/2024 18:28,5.51519,8.44515,-83.2653,258.856,755.931,887.7747,0.4404048,1322.87,0.9990769,0.577054,17.2246,0,55,749.9393,0.0190468,-0.06630237
7/2/2024 12:58,4.17621,8.463715,-84.26428,125.921,1012.07,1195.12,0.599991,988.0751,0.9992424,0.776831,16.9807,0,54,751.0569,0.0136719,-0.07539347
7/3/2024 7:28,3.537742,8.464147,-83.50134,125.663,1012.57,1273.62,0.639349,987.581,0.999705,0.8278512,14.269,0,54,751.8969,0.07928944,0.0787873
7/4/2024 1:58,3.81099,8.461738,-83.75168,132.632,1053.96,1284.42,0.646018,948.8063,0.999508,0.8348735,15.6057,0,54,753.337,0.0605955,0.046378
7/4/2024 20:28,4.40384,8.434466,-82.63588,236.883,863.6358,1015.39,0.506375,1157.9,0.999136,0.660001,17.1753,0,54,752.9395,0.0216551,-0.0556269
7/5/2024 14:58,3.66455,8.43316,-83.21285,141.172,668.3942,747.347,0.368818,1496.123,0.9985969,0.485775,19.4689,0,53,748.8592,0.006514549,-0.08309524
7/6/2024 9:28,3.75728,8.45281,-83.5371,107.105,1100.4,1309.62,0.6599055,908.76,0.999348,0.8512513,16.6359,0,53,751.094,0.0334463,-0.0297541
7/7/2024 3:58,4.73955,8.460934,-83.63962,84.45024,1079.25,1322.257,0.6657349,926.5652,0.9995588,0.859467,15.3781,0,53,752.092,0.06520271,0.04669676
7/7/2024 22:28,4.24909,8.446798,-83.12702,84.1141,1086.037,1299.15,0.6542683,920.779,0.9993819,0.8444476,16.4115,0,53,751.589,0.0478621,0.004354348
7/8/2024 16:58,3.10402,8.433634,-82.90768,79.3052,910.211,1043.798,0.5215225,1098.65,0.9989422,0.678469,18.29937,0,53,749.1067,0.00613308,-0.09195351
7/9/2024 11:28,6.744016,8.438726,-82.83138,69.89002,1095.39,1292.94,0.651334,912.9139,0.9992784,0.8404109,17.0006,0.009,52,750.6068,0.0160522,-0.0675897
7/10/2024 5:58,3.85427,8.472298,-84.30481,59.0396,1046.71,1280.89,0.6440419,955.373,0.9995342,0.8325775,15.4281,0,52,751.5669,0.0582695,0.0288496
7/11/2024 0:28,3.12459,8.454436,-83.51088,63.7746,933.561,1121.64,0.561217,1071.17,0.999342,0.7290638,16.221,0,52,750.6743,0.0476704,0.003916309
7/11/2024 18:58,3.228117,8.453483,-83.69684,55.294,855.07,1008.03,0.502511,1169.49,0.9991543,0.655217,17.0556,0,52,750.7344,0.0264139,-0.0427906
7/12/2024 13:28,3.96338,8.471582,-84.91278,52.9003,1118.3,1300.91,0.6558552,894.218,0.9991657,0.845594,17.6504,0,52,752.212,0.00922966,-0.0876573
7/13/2024 7:58,4.008846,8.47124,-84.41448,44.9562,1092.09,1318.445,0.6641663,915.679,0.999456,0.856989,16.0112,0,51,753.3821,0.0462818,0.007281348
7/14/2024 2:28,3.58345,8.469752,-84.07355,44.1909,1072.12,1321.03,0.6649118,932.7318,0.9995958,0.8586719,15.1349,0,51,754.785,0.06227112,0.0380754
7/14/2024 20:58,3.729923,8.465787,-84.19037,38.1088,1102.87,1322.15,0.6663105,906.7284,0.9994072,0.859399,16.3165,0,51,755.8273,0.0280046,-0.04744219
7/15/2024 15:28,2.77011,8.456411,-84.15222,42.2478,1140.56,1315.2,0.6635604,876.7616,0.9990983,0.854879,18.0479,0,51,753.9446,0.003808022,-0.09966443
7/16/2024 9:58,3.8621,8.468585,-84.38826,31.0564,1108.49,1325.03,0.667904,902.124,0.999387,0.8612697,16.444,0,51,755.1822,0.0207787,-0.05865499
7/17/2024 4:28,3.99981,8.477344,-84.6219,30.7941,1088.78,1329.38,0.6695881,918.458,0.9995387,0.8640999,15.5242,0,50,754.0946,0.0493498,0.005934211
7/17/2024 22:58,3.97039,8.473864,-84.61475,24.7765,1089.98,1310.76,0.6602337,917.445,0.999425,0.851995,16.1814,0,50,753.397,0.0244131,-0.04507521
7/18/2024 17:28,3.53662,8.443154,-83.28676,28.3813,1105.591,1284.7,0.6473476,904.494,0.9991501,0.8350579,17.7005,0,50,753.7045,-0.000647545,-0.103393
7/19/2024 11:58,5.569172,8.475709,-84.9009,20.4206,1112.24,1318.89,0.6648778,899.0882,0.999324,0.8572785,16.7965,0,50,754.7321,0.0146379,-0.07683036
7/20/2024 6:28,3.502797,8.474036,-84.30719,18.7874,1072.76,1323.04,0.665938,932.171,0.9996026,0.8599774,15.0959,0,49,753.6296,0.05253029,0.02215144
7/21/2024 0:58,4.269969,8.481369,-84.98669,10.5238,1091.4,1318.549,0.6642011,916.251,0.999461,0.8570568,15.9807,0,49,752.3919,0.03748417,-0.01396668
7/21/2024 19:28,3.537632,8.468737,-84.47409,16.1409,1061.15,1260.82,0.634297,942.3772,0.999316,0.819532,16.7085,0,49,752.189,0.028553,-0.0326957
7/22/2024 13:58,3.07621,8.468789,-84.79834,13.9546,1041.77,1207.58,0.606889,959.909,0.999099,0.7849278,17.8109,0,49,751.222,-0.001846314,-0.105209
7/23/2024 8:28,3.47438,8.469467,-84.30243,7.081032,1088.34,1314.99,0.6623256,918.834,0.9994604,0.854743,15.9758,0,49,752.572,0.0388565,-0.007947017
7/24/2024 2:58,3.47578,8.472761,-84.48839,3.1805,837.19,1011.78,0.5039899,1194.47,0.99934,0.6576582,15.9655,0,48,754.4246,0.03923893,0.001347075
7/24/2024 21:28,7.33001,8.449786,-83.6873,16.3054,1155.04,1340.33,0.676677,865.771,0.9991613,0.871212,17.7623,0,48,755.872,0.003576279,-0.09998501
7/25/2024 15:58,4.03512,8.44775,-83.97579,24.5595,1189.1,1337.94,0.675996,840.9695,0.99889,0.869659,19.1759,0,48,753.8246,-0.0163946,-0.118624
7/26/2024 10:28,42.6932,8.461202,-84.2309,16.7251,1137.01,1331.15,0.6716403,879.496,0.9992296,0.865245,17.3645,0,48,753.037,0.004948616,-0.09470434
7/27/2024 4:58,40.2319,8.497441,-85.71863,9.939671,1079,1323.1,0.666153,926.7804,0.999565,0.860018,15.3408,0,48,752.7145,0.0477896,6.25E-05
7/27/2024 23:28,43.595,8.488785,-85.30379,10.2162,1055.81,1286.43,0.6470787,947.1386,0.999507,0.8361804,15.6141,0,47,752.902,0.0421972,-0.0168703
7/28/2024 17:58,43.21445,8.48012,-85.17981,11.4131,1124.73,1331.14,0.6713766,889.103,0.999315,0.8652403,16.8815,0,47,753.2621,0.012187,-0.0809529
7/29/2024 12:28,39.3795,8.477989,-85.13451,8.399487,1124.927,1323.46,0.6674787,888.9466,0.999265,0.8602521,17.1459,0,47,754.6421,0.001883507,-0.107016
7/30/2024 6:58,110.912,8.503708,-85.93559,0.9799,1067.823,1324.13,0.6663289,936.4848,0.999638,0.860682,14.86575,0,47,754.2446,0.06234169,0.03190419
7/31/2024 1:28,98.8218,8.488831,-85.40869,10.0279,1098.61,1327.88,0.6690944,910.245,0.999468,0.863119,15.9603,0,47,752.249,0.0402565,-0.0167328
7/31/2024 19:58,46.33769,8.480278,-85.21796,7.238388,1127.29,1331.17,0.67145,887.081,0.9992973,0.8652623,16.9812,0,46,753.105,0.0126238,-0.080501
8/1/2024 14:28,92.29578,8.466828,-84.74112,9.827614,1147.94,1325.01,0.6687149,871.1256,0.999111,0.86126,18.0031,0,46,754.5521,-0.0146437,-0.144613
8/2/2024 8:58,136.087,8.483442,-85.0892,1.308918,1057.42,1279.14,0.6434548,945.697,0.9994542,0.831441,15.9249,0,46,756.1572,0.032217,-0.0306548
8/3/2024 3:28,57.85461,8.485339,-85.28471,7.56741,1102.51,1324.68,0.667579,907.022,0.9994244,0.86104,16.2191,0,46,754.1396,0.038065,-0.0200836
8/3/2024 21:58,33.65953,8.477938,-85.12974,7.162094,1131.6,1331.5,0.6717085,883.7034,0.99927,0.8654746,17.1398,0,46,752.624,0.0143595,-0.07479047
8/4/2024 16:28,130.143,8.463788,-84.7507,5.156994,1165.57,1326.71,0.669877,857.9512,0.998991,0.862364,18.6407,0.009,45,751.214,-0.0143309,-0.135777
8/5/2024 10:58,139.955,8.47412,-84.85556,-2.84433,1120.57,1324.04,0.667677,892.403,0.999299,0.8606254,16.95429,0,45,752.52,0.004645348,-0.0977763
8/6/2024 5:28,145.389,8.492306,-85.4635,-5.326271,1065.5,1302.54,0.6554394,938.527,0.999536,0.846649,15.4722,0,45,752.234,0.0496893,0.006170489
8/6/2024 23:58,154.753,8.474727,-84.98669,-1.16348,1134.77,1330.94,0.671492,881.234,0.999244,0.865114,17.2831,0,45,753.652,0.0137835,-0.07611931
8/7/2024 18:28,16.99013,8.47749,-85.23703,-1.29223,1141.82,1329.95,0.6711261,875.7962,0.9991878,0.864469,17.59374,0,45,753.42,0.0142813,-0.0772509
8/8/2024 12:58,27.6619,8.489998,-85.9642,-7.786751,1134.09,1320.4,0.6660992,881.764,0.9991805,0.858258,17.6126,0,44,753.6371,-0.005921364,-0.121565
8/9/2024 7:28,20.6267,8.498986,-85.79492,-14.0619,1038.36,1274.48,0.640591,963.0579,0.999552,0.8284137,15.3,0,44,753.0745,0.0469751,0.0233821
8/10/2024 1:58,35.3769,8.506033,-86.31706,-16.00504,1090.72,1326.39,0.668132,916.8261,0.99951,0.8621504,15.6976,0,44,751.9569,0.03975773,-0.0178877
8/10/2024 20:28,5.27008,8.483002,-85.4015,-12.5074,1117.83,1317.3,0.664194,894.587,0.9992757,0.856247,17.07216,0,44,752.092,0.0145645,-0.0737611
8/11/2024 14:58,12.5177,8.474605,-85.3443,-10.9982,1152.6,1315.14,0.663728,867.6057,0.999007,0.8548387,18.52926,0,44,752.737,-0.0171814,-0.152808
8/12/2024 9:28,60.45872,8.492214,-85.47067,-19.0401,1079.88,1318.83,0.6640319,926.026,0.999536,0.857241,15.514,0,43,754.1321,0.0386848,-0.0186629
8/13/2024 3:58,106.488,8.509211,-86.3624,-19.4597,1070.94,1316.31,0.6625064,933.757,0.999578,0.855599,15.2407,0,43,752.7745,0.0544119,0.0136138
8/13/2024 22:28,65.02991,8.492413,-85.66618,-21.6293,1088.46,1310.302,0.659963,918.7272,0.9994322,0.8516963,16.1359,0,43,753.202,0.0342731,-0.03170387
8/14/2024 16:58,28.4289,8.47518,-85.2537,-15.285,1121.6,1291.7,0.651209,891.5819,0.999078,0.839606,18.1054,0,43,753.4571,-0.003777504,-0.109284
8/15/2024 11:28,39.8188,8.465786,-84.722,-18.2605,1120.58,1289.41,0.650021,892.3936,0.9990698,0.8381189,18.1447,0,43,753.36,-0.0128345,-0.1384851
8/16/2024 5:58,29.9393,8.50878,-86.35998,-22.5067,1078.3,1323.028,0.6660943,927.3895,0.9995689,0.8599682,15.3152,0,42,752.692,0.0463362,-0.003877382
8/17/2024 0:28,30.2027,8.496596,-85.92844,-20.58506,1104.79,1327.682,0.6691546,905.152,0.9994271,0.8629933,16.2103,0,42,752.0094,0.0272341,-0.04968411
8/17/2024 18:58,24.6345,8.484081,-85.53267,-22.2445,1128.58,1322.99,0.667313,886.0683,0.9992367,0.8599439,17.3064,0,42,753.352,0.007630348,-0.08851384
8/18/2024 13:28,15.2637,8.476281,-85.516,-19.2904,1129.53,1281.7,0.6462063,885.324,0.9989447,0.8331027,18.7841,0,42,753.72,-0.0185337,-0.1495609
8/19/2024 7:58,15.8911,8.512662,-86.55786,-31.9958,1032.23,1268.92,0.637629,968.7728,0.999559,0.8248,15.2342,0,42,754.9196,0.04346752,-0.006455783
8/20/2024 2:28,22.4169,8.504602,-86.2503,-25.4059,1087.85,1321.331,0.665509,919.245,0.9995,0.8588652,15.7486,0,41,753.5396,0.0310926,-0.0310837
8/20/2024 20:58,13.2615,8.483003,-85.4564,-26.92461,517.2341,606.986,0.297073,1933.36,0.998961,0.3945409,17.25838,0,41,753.9521,0.01455307,-0.0762996
8/21/2024 15:28,18.7593,8.481863,-85.7568,-23.5915,409.952,468.027,0.227408,2439.31,0.998678,0.304218,18.5034,0,41,752.647,-0.01181221,-0.141536
8/22/2024 9:58,20.3851,8.505294,-86.40527,-31.2734,1091.37,1313.83,0.6618184,916.2836,0.9994338,0.8539898,16.1348,0,41,754.5372,0.0243568,-0.0516802
8/23/2024 4:28,25.3237,8.507035,-86.45773,-32.0363,1070.419,1293.34,0.6509448,934.2137,0.9994516,0.8406705,15.9759,0,41,753.7495,0.03220558,-0.0335669
8/23/2024 22:58,16.2413,8.504139,-86.3338,-33.15687,1033.61,1244.8,0.625554,967.4866,0.999409,0.809118,16.1173,0,40,754.837,0.0286293,-0.04124983
8/24/2024 17:28,20.5431,8.494528,-86.04765,-29.0966,732.467,864.326,0.428266,1365.25,0.999105,0.5618119,17.0127,0,40,755.01,0.007411003,-0.08680333
8/25/2024 11:58,11.4014,8.489147,-85.90936,-28.5745,1115.67,1299.51,0.655089,896.3251,0.999176,0.8446817,17.5931,0,40,755.6172,-0.01098156,-0.136157
8/26/2024 6:28,6.29435,8.51638,-86.58647,-35.1357,1054.11,1314.68,0.6611742,948.671,0.9996702,0.854544,14.6228,0,40,756.4723,0.0591097,0.02617118
8/27/2024 0:58,9.806488,8.500169,-86.20262,-33.7958,1052.16,1257.74,0.6325346,950.424,0.9993599,0.8175339,16.4422,0,40,754.372,0.022192,-0.0561048
8/27/2024 19:28,5.03204,8.48424,-85.41107,-29.4161,857.85,1015.72,0.506425,1165.7,0.999191,0.6602173,16.8625,0,39,753.3295,0.0114412,-0.08205651
8/28/2024 13:58,4.345453,8.502703,-86.7724,-29.1038,1133.57,1312.43,0.662018,882.1657,0.9991311,0.8530775,17.8651,0,39,753.862,-0.0109415,-0.134895
8/29/2024 8:28,3.54378,8.511044,-86.55071,-32.78494,1071.03,1307.86,0.6582682,933.683,0.9995307,0.8501082,15.5192,0,39,755.677,0.04129982,0.00130332
8/30/2024 2:58,4.161272,8.517634,-86.92503,-34.6899,951.538,1162.239,0.5819964,1050.93,0.9994736,0.7554554,15.5084,0,39,754.4846,0.038744,-0.01311073
8/30/2024 21:28,6.57069,8.499899,-86.20024,-30.89428,1054.59,1259.37,0.633414,948.2386,0.9993532,0.8185923,16.4864,0.009,39,755.1822,0.0176268,-0.0647839
8/31/2024 15:58,6.8273,8.50073,-86.67708,-24.5643,1046.17,1209.57,0.6079808,955.8669,0.9990783,0.786222,17.9272,0,38,753.127,-0.00989151,-0.1264825
9/1/2024 10:28,314.766,8.499821,-86.27415,-29.3517,1101.193,1307.17,0.6586852,908.106,0.999328,0.8496633,16.7499,0,38,752.895,0.00798893,-0.08577303
9/2/2024 4:58,179.107,8.525029,-87.28981,-29.9072,1049.85,1288.16,0.6477793,952.513,0.9995548,0.8373054,15.3142,0,38,752.587,0.04460144,0.000399198
9/2/2024 23:28,73.84861,8.501523,-86.36713,-27.4873,1070.19,1270.85,0.6395767,934.4175,0.999316,0.82605,16.7332,0,38,751.7994,0.0235624,-0.047589
9/3/2024 17:58,83.13554,8.479823,-85.50167,-23.5367,387.097,446.4793,0.216601,2583.33,0.9987574,0.290212,18.0366,0,37,752.129,-0.0108957,-0.128809
9/4/2024 12:28,142.9618,8.476296,-85.2323,-27.7233,643.1445,745.486,0.367565,1554.86,0.9989148,0.4845661,17.8125,0,37,753.517,-0.01515007,-0.133819
9/5/2024 6:58,75.85162,8.511824,-86.90834,-33.1473,1081.93,1289.8,0.64944,924.271,0.999353,0.8383688,16.5623,0,37,753.4571,0.02135849,-0.05378438
9/6/2024 1:28,102.203,8.482429,-85.94513,-26.1188,1045.77,1180.3,0.593023,956.2377,0.998855,0.767193,19.0324,0,37,751.259,-0.000356674,-0.105725
9/6/2024 19:58,14.558,8.473402,-85.7496,-27.8258,634.606,699.3389,0.34439,1575.78,0.9984379,0.4545703,20.15379,0,37,750.629,-0.004077911,-0.112504
9/7/2024 14:28,768.186,8.464379,-85.50406,-25.7921,419.761,453.398,0.22027,2382.31,0.9981379,0.294709,21.1158,0,36,748.822,-0.0156622,-0.138722
9/8/2024 8:58,38.19447,8.489609,-86.2241,-28.6269,1108.75,1264.04,0.636838,901.917,0.998979,0.821628,18.56782,0,36,750.3443,0.009859085,-0.08031828
9/9/2024 3:28,25.0286,8.50259,-86.69376,-29.57344,924.209,1075.79,0.5379445,1082.01,0.99908,0.6992625,17.623,0,36,750.959,0.0298376,-0.03612057
9/9/2024 21:58,12.1657,8.500752,-86.6318,-30.9777,752.557,873.1145,0.433015,1328.8,0.998973,0.567524,17.7708,0,36,752.332,0.0221853,-0.0518564
9/10/2024 16:28,11.7214,8.505204,-86.956,-33.2332,1016.6,1173.6,0.589159,983.672,0.999051,0.7628388,17.99603,0,36,750.629,0.009763718,-0.07841399
9/11/2024 10:58,7.368202,8.512925,-87.05616,-35.6364,1077.22,1276,0.642344,928.314,0.9992988,0.8294,16.8439,0,35,750.9819,0.0165949,-0.0629365
9/12/2024 5:28,8.284806,8.521406,-87.24928,-41.72802,1058.72,1282.43,0.645144,944.534,0.999465,0.8335784,15.86708,0,35,748.934,0.0624256,0.0471188
9/12/2024 23:58,9.021662,8.524472,-87.43524,-47.93167,1039.09,1257.67,0.6321728,962.385,0.9994495,0.8174867,15.9004,0,35,748.9042,0.0530844,0.0212729
9/13/2024 18:28,7.80508,8.515332,-87.0132,-42.10949,869.011,1043.62,0.520633,1150.73,0.9993076,0.67835,16.24045,0,35,750.5693,0.0108204,-0.07440137
9/14/2024 12:58,11.6358,8.526506,-87.5378,-43.9,1056.62,1280.28,0.6440072,946.412,0.9994662,0.8321817,15.8537,0,35,752.902,0.0206985,-0.0456467
9/15/2024 7:28,12.8687,8.529781,-87.4877,-43.92147,952.785,1175.786,0.588789,1049.55,0.999547,0.7642609,15.0701,0,34,753.052,0.0452204,0.0109386
9/16/2024 1:58,11.6319,8.537941,-88.05752,-49.7437,1045.48,1279.97,0.643545,956.5025,0.999537,0.8319797,15.4083,0,34,751.8819,0.037385,-0.008139332
9/16/2024 20:28,28.8866,8.514642,-86.7748,-45.5451,1015.54,1238.37,0.6218506,984.6994,0.999493,0.804941,15.57904,0,34,753.7045,0.0247736,-0.03342
9/17/2024 14:58,24.0878,8.529588,-87.9526,-46.62752,1087.52,1294.21,0.651803,919.5272,0.9993414,0.8412374,16.63832,0,34,753.187,0.002964973,-0.08706892
9/18/2024 9:28,33.2628,8.532959,-87.6379,-44.682,1030.04,1274.239,0.6402225,970.832,0.999603,0.828255,14.9665,0,34,752.482,0.0402012,0.004043376
9/19/2024 3:58,14.6265,8.5439,-88.1505,-48.5373,1044.22,1303.12,0.655085,957.6523,0.9996691,0.8470276,14.5981,0,33,751.7994,0.0551376,0.0322281
9/19/2024 22:28,20.6547,8.522936,-87.28743,-46.60368,1076.116,1308.46,0.658713,929.2679,0.999502,0.850501,15.703,0,33,752.7295,0.027441,-0.0253953
9/20/2024 16:58,7.9685,8.536999,-88.36984,-45.0277,1084.97,1292.04,0.650644,921.6848,0.999346,0.8398245,16.6092,0,33,752.324,0.004546166,-0.08243254
9/21/2024 11:28,4.590758,8.54411,-88.50336,-45.0468,1037.06,1260.73,0.633656,964.269,0.9994812,0.8194743,15.7112,0,33,754.0496,0.0248117,-0.031462
9/22/2024 5:58,3.76294,8.552377,-88.78946,-44.86561,1051.215,1296.31,0.6519,951.2802,0.999591,0.8426006,15.101,0,32,753.082,0.04565239,0.0166237
9/23/2024 0:28,4.603434,8.54064,-88.2125,-45.3949,1032.19,1263.66,0.63499,968.818,0.99953,0.821377,15.4097,0,32,751.064,0.0391912,0.000770315
9/23/2024 18:58,12.8421,8.519559,-87.24928,-44.5557,1036.52,1245.409,0.625934,964.7703,0.999392,0.8095159,16.2183,0,32,749.5643,0.010191,-0.0623952
9/24/2024 13:28,10.7181,8.537758,-88.39845,-47.8888,1037.63,1237.06,0.6217472,963.7307,0.9993318,0.804087,16.5598,0,32,750.9293,0.001992226,-0.08881821
9/25/2024 7:58,6.144758,8.542587,-88.26494,-50.6639,922.9438,1135.04,0.5676312,1083.49,0.9995081,0.7377736,15.2168,0,32,752.422,0.03340149,-0.01164017
9/26/2024 2:28,6.69912,8.544272,-88.3174,-45.7525,1033.31,1275.06,0.640733,967.765,0.999587,0.82879,15.0733,0,31,751.154,0.04195881,0.004285086
9/26/2024 20:58,10.55634,8.537055,-88.08613,-46.7777,1003.16,1220.74,0.612675,996.846,0.9994718,0.793481,15.6684,0,31,752.0169,0.0220737,-0.0387295
9/27/2024 15:28,656.03,8.543668,-88.72986,-49.4385,1016.21,1212.26,0.608736,984.053,0.999326,0.787969,16.5327,0,31,750.5993,8.30E-05,-0.08618036
9/28/2024 9:58,11.95784,8.553991,-88.84907,-52.2447,1039.44,1285,0.645889,962.0525,0.999603,0.8352523,14.995,0,31,752.977,0.0330019,-0.0135186
9/29/2024 4:28,12.0634,8.55544,-88.8872,-49.1524,1036.69,1286,0.6463011,964.608,0.9996247,0.8358986,14.85009,0,31,752.827,0.0398035,0.003123652
9/29/2024 22:58,21.5242,8.551847,-88.87291,-52.17552,831.9439,1017.07,0.506481,1202,0.999421,0.6610926,15.4704,0,30,751.5144,0.02876,-0.0204541
9/30/2024 17:28,23.0527,8.543727,-88.66548,-49.34311,269.249,322.821,0.1551625,3714.03,0.9990137,0.209834,16.31154,0,30,751.087,0.009818077,-0.06652672
10/1/2024 11:58,63.5689,8.54616,-88.6273,-46.57507,806.1339,979.536,0.487186,1240.49,0.999365,0.636698,15.7317,0,30,753.7796,0.005565643,-0.07058166
10/2/2024 6:28,21.7964,8.55082,-88.66548,-49.2001,911.2881,1126.76,0.5631743,1097.35,0.9995397,0.7323916,14.988,0,30,751.4469,0.03725815,0.001578311
10/3/2024 0:58,19.0485,8.523803,-87.84056,-46.5965,144.361,168.996,0.08016767,6927.08,0.998774,0.109847,17.3679,0,30,748.619,0.004455566,-0.0803522
10/3/2024 19:28,51.9806,8.526793,-87.98361,-47.24264,266.568,312.7344,0.150299,3751.38,0.9988453,0.203277,17.2712,0,29,749.497,-0.005959511,-0.0986792
10/4/2024 13:58,22.816,8.539527,-88.9492,-42.9273,653.8046,754.2115,0.372071,1529.51,0.9988781,0.490237,18.0299,0,29,752.3469,-0.0181055,-0.13673
10/5/2024 8:28,3210.23,8.540484,-88.2554,-48.27261,998.89,1218.068,0.61122,1001.11,0.9994849,0.7917442,15.5791,0,29,754.507,0.0218525,-0.03403181
10/6/2024 2:58,21.6684,8.549689,-88.77516,-53.6823,988.2026,1205.73,0.604747,1011.94,0.9994839,0.7837227,15.5545,0,29,753.3745,0.0289898,-0.0227689
10/6/2024 21:28,104.547,8.535462,-88.1362,-48.4967,950.8558,1144.75,0.573224,1051.68,0.9993661,0.744085,16.1322,0,28,752.189,0.0164099,-0.0498906
10/7/2024 15:58,16.2474,8.537449,-88.58443,-43.5948,708.6734,832.2159,0.41183,1411.09,0.999054,0.54094,17.2277,0,28,750.5693,-0.009019852,-0.110021
10/8/2024 10:28,16.871,8.549592,-88.58204,-46.51308,972.138,1203.23,0.603037,1028.66,0.9995771,0.7821,14.9445,0.009,28,752.294,0.0231352,-0.0362855
10/9/2024 4:58,6.3288,8.568005,-89.65969,-53.9875,1028.32,1270.34,0.6382242,972.4598,0.999592,0.8257242,15.0252,0,28,753.5696,0.03085804,-0.02133159
10/9/2024 23:28,6.16788,8.555502,-89.13517,-46.7324,991.615,1207.43,0.6056908,1008.46,0.9994707,0.784827,15.64208,0,28,753.862,0.0222082,-0.0360429
10/10/2024 17:58,12.32598,8.551852,-89.10417,-52.166,741.8573,891.321,0.441877,1347.97,0.9992502,0.5793586,16.22054,0,27,754.575,0.007012367,-0.07822646
10/11/2024 12:28,8.023562,8.547813,-88.78708,-54.7814,873.2839,1055.95,0.5268938,1145.103,0.999361,0.686367,15.9431,0,27,756.232,0.000718117,-0.0861091
10/12/2024 6:58,6.497686,8.57791,-89.92195,-51.0883,1007.94,1274.38,0.639566,992.12,0.9997356,0.828344,14.054,0,27,757.6274,0.05301571,0.0354896
10/13/2024 1:28,7.32068,8.5634,-89.59293,-48.1534,1043.81,1270.466,0.63873,958.0259,0.999493,0.8258029,15.6596,0,27,755.5047,0.0178394,-0.0461264
10/13/2024 19:58,7.749848,8.546655,-88.83714,-50.79508,1079.83,1294.35,0.6516894,926.0707,0.9993947,0.8413247,16.3229,0,27,755.9848,0.00611496,-0.0755594
10/14/2024 14:28,6.965431,8.560256,-89.67638,-47.8148,1079.39,1288.3,0.648621,926.4472,0.9993609,0.8373932,16.5102,0,26,755.917,-0.003874779,-0.09671012
10/15/2024 8:58,9.999791,8.565124,-89.54764,-50.8571,997.2717,1227.08,0.615681,1002.74,0.999549,0.7976,15.1948,0,26,756.6373,0.0212774,-0.03581478
10/16/2024 3:28,5.238,8.563734,-89.45465,-45.805,1024.49,1261.85,0.6338644,976.0969,0.999569,0.820205,15.1514,0,26,754.342,0.0283346,-0.0252558
10/16/2024 21:58,4.34666,8.566005,-89.75267,-47.16873,1057.328,1285.93,0.64687,945.78,0.9994943,0.8358574,15.6924,0,26,752.4745,0.0177002,-0.0483471
10/17/2024 16:28,132.747,8.567604,-89.75506,-55.22728,890.3473,1090.118,0.544363,1123.16,0.9994607,0.708577,15.4054,0,25,751.1619,0.0161562,-0.05143427
10/18/2024 10:58,4.67895,8.581447,-90.04116,-53.618,1009.97,1285.08,0.6449425,990.13,0.999776,0.8353042,13.7915,0,25,755.3547,0.0285721,-0.021376
10/19/2024 5:28,5.277414,8.59971,-90.2891,-45.1946,950.7575,1287.82,0.64369,1051.79,1.000081,0.8370841,11.2968,0,25,756.4498,0.07009792,0.0772149
10/19/2024 23:58,6.722339,8.59674,-90.28673,-57.99532,969.271,1295.42,0.6482945,1031.7,1.00003,0.842023,11.8183,0,25,756.6223,0.06099987,0.0529355
10/20/2024 18:28,19.2359,8.572075,-89.469,-36.3946,1004.37,1281.82,0.6431203,995.649,0.999792,0.833181,13.6676,0,25,757.4249,0.006912231,-0.0708844
10/21/2024 12:58,11.2486,8.574885,-89.72645,7.74384,833.796,1056.09,0.525799,1199.334,0.999658,0.686459,13.9797,0,24,756.4198,0.001561165,-0.08416429
10/22/2024 7:28,10.82417,8.599076,-90.42978,-37.5032,935.6622,1249.408,0.6243379,1068.76,1,0.8121152,11.8526,0,24,756.577,0.05587578,0.04158903
10/23/2024 1:58,8.502357,8.588148,-90.35587,-55.78518,1006.84,1287.74,0.6461422,993.2042,0.999806,0.8370338,13.5793,0,24,755.1447,0.02862072,-0.0208009
10/23/2024 20:28,9.080962,8.576328,-89.91,-52.9075,1022.45,1284.96,0.6453206,978.046,0.9997045,0.8352236,14.3039,0,24,754.2446,0.007850647,-0.07204099
10/24/2024 14:58,4.401119,8.568012,-89.75506,-51.2147,1030.68,1264.15,0.635195,970.2371,0.9995426,0.821699,15.3304,0,23,751.859,-0.01640606,-0.129417
10/25/2024 9:28,4.26583,8.591038,-89.9982,62.8853,966.068,1287.6,0.6443416,1035.12,1.00001,0.836943,11.9258,0,23,755.37,0.0459003,0.0190433
10/26/2024 3:58,8.91151,8.6026,-90.7922,-55.63259,965.7554,1272.93,0.6371776,1035.46,0.9999545,0.8274062,12.3657,0,23,755.6847,0.04643917,0.01935765
10/26/2024 22:28,9.208711,8.574986,-89.74313,-43.1991,1005.66,1272.7,0.6386553,994.368,0.9997404,0.827256,14.0147,0,23,755.9622,0.0129623,-0.0583339
10/27/2024 16:58,16.9754,8.567574,-89.76698,-58.2194,969.2653,1185.53,0.5941208,1031.71,0.9994923,0.770592,15.4493,0,23,754.65,-0.0273952,-0.148598
10/28/2024 11:28,53.0101,8.582884,-90.50131,-62.11996,970.5545,1199.815,0.6012879,1030.34,0.9995679,0.77988,14.99582,0,22,754.9347,-0.0112696,-0.113303
10/29/2024 5:58,8.88856,8.59719,-90.7874,-62.4871,880.808,1133.79,0.565611,1135.32,0.999779,0.7369646,13.3178,0,22,754.7321,0.0285416,-0.0219163
10/30/2024 0:28,11.3906,8.601282,-90.77549,-54.0519,269.937,354.1695,0.1699165,3704.56,0.999568,0.23021,12.5482,0,22,756.195,0.0425186,0.0127442
10/30/2024 18:58,12.2645,8.597895,-90.64436,-52.7024,582.9743,761.2242,0.373645,1715.34,0.9997033,0.494796,12.7402,0,22,758.28,0.0167284,-0.0486986
10/31/2024 13:28,741.5339,8.586906,-90.37495,-47.04714,478.29,607.502,0.2963873,2090.78,0.9994958,0.3948762,13.8642,0,21,755.7822,-0.009408951,-0.109481
11/1/2024 7:58,13.6275,8.614996,-91.02821,326.0088,527.9195,722.292,0.352769,1894.23,0.9998934,0.46949,10.9107,0,21,755.3247,0.07441521,0.08390228
11/2/2024 2:28,17.7666,8.596817,-90.65628,-47.0567,399.646,518.858,0.251616,2502.216,0.999579,0.337258,12.9707,0,21,753.667,0.0184002,-0.0424559
11/2/2024 20:58,47.3468,8.591275,-90.4989,-63.1118,474.003,607.8874,0.2964306,2109.69,0.999549,0.395127,13.4688,0,21,754.657,0.007191658,-0.07117042
11/3/2024 15:28,139.032,8.595307,-90.92808,-54.09956,264.3447,333.8474,0.160262,3782.94,0.9993571,0.217001,14.10015,0,20,753.4496,-0.003568649,-0.0955338
11/4/2024 9:58,9.378568,8.606358,-90.9948,-59.93128,716.857,945.632,0.467606,1394.98,0.9998262,0.6146609,12.3336,0,20,758.392,0.0307598,-0.013952
11/5/2024 4:28,7.130964,8.604606,-90.7588,-55.6231,929.5645,1239.64,0.619309,1075.77,0.9999948,0.8057674,11.9039,0,20,755.857,0.04230404,0.0102847
2/4/2025 11:20,404.4717,8.712038,-96.96245,-7.317066,108.09,142.785,0.067152,9251.573,0.99952,0.09281012,12.2781,17.183,20,754.125,-0.0272732,-0.171994
,,,,,,,,,,,,,,,,
Log Notes,,,,,,,,,,,,,,,,
2024-02-22 11:57:16 Started,,,,,,,,,,,,,,,,
2024-11-05 11:59:15 Hardware Reset,,,,,,,,,,,,,,,,
2024-11-05 11:59:38 Hardware Reset,,,,,,,,,,,,,,,,
2024-11-05 12:00:00 Hardware Reset,,,,,,,,,,,,,,,,
2024-11-05 12:00:21 Hardware Reset,,,,,,,,,,,,,,,,
2024-11-05 12:00:42 Hardware Reset,,,,,,,,,,,,,,,,
2024-11-05 12:01:04 Hardware Reset,,,,,,,,,,,,,,,,
2024-11-05 12:01:25 Hardware Reset,,,,,,,,,,,,,,,,
2024-11-05 12:01:47 Hardware Reset,,,,,,,,,,,,,,,,
2024-11-05 12:02:08 Hardware Reset,,,,,,,,,,,,,,,,
2024-11-05 12:02:30 Hardware Reset,,,,,,,,,,,,,,,,
2024-11-05 12:02:51 Hardware Reset,,,,,,,,,,,,,,,,
2024-11-05 12:03:13 Hardware Reset,,,,,,,,,,,,,,,,
2024-11-05 12:03:34 Hardware Reset,,,,,,,,,,,,,,,,
2024-11-05 12:03:55 Hardware Reset,,,,,,,,,,,,,,,,
2024-11-05 12:04:17 Hardware Reset,,,,,,,,,,,,,,,,
2024-11-05 12:04:38 Hardware Reset,,,,,,,,,,,,,,,,
2024-11-05 12:05:00 Hardware Reset,,,,,,,,,,,,,,,,
2024-11-05 12:05:21 Hardware Reset,,,,,,,,,,,,,,,,
2024-11-05 12:05:43 Hardware Reset,,,,,,,,,,,,,,,,
2024-11-05 12:06:04 Hardware Reset,,,,,,,,,,,,,,,,
2024-11-05 12:06:25 Hardware Reset,,,,,,,,,,,,,,,,
2024-11-05 12:06:47 Hardware Reset,,,,,,,,,,,,,,,,
2024-11-05 12:07:08 Hardware Reset,,,,,,,,,,,,,,,,
2024-11-05 12:07:30 Hardware Reset,,,,,,,,,,,,,,,,
2024-11-05 12:07:51 Hardware Reset,,,,,,,,,,,,,,,,
2024-11-05 12:08:12 Hardware Reset,,,,,,,,,,,,,,,,
2024-11-05 12:08:34 Hardware Reset,,,,,,,,,,,,,,,,
2024-11-05 12:08:55 Hardware Reset,,,,,,,,,,,,,,,,
2024-11-05 12:09:17 Hardware Reset,,,,,,,,,,,,,,,,
2024-11-05 12:09:38 Hardware Reset,,,,,,,,,,,,,,,,
2024-11-05 12:10:00 Hardware Reset,,,,,,,,,,,,,,,,
2024-11-05 12:10:21 Hardware Reset,,,,,,,,,,,,,,,,
2024-11-05 12:10:42 Hardware Reset,,,,,,,,,,,,,,,,
2024-11-05 12:11:03 Hardware Reset,,,,,,,,,,,,,,,,
2024-11-05 12:11:25 Hardware Reset,,,,,,,,,,,,,,,,
2024-11-05 12:11:46 Hardware Reset,,,,,,,,,,,,,,,,
2024-11-05 12:12:07 Hardware Reset,,,,,,,,,,,,,,,,
2024-11-05 12:12:28 Hardware Reset,,,,,,,,,,,,,,,,
2024-11-05 12:12:49 Hardware Reset,,,,,,,,,,,,,,,,
2024-11-05 12:13:10 Hardware Reset,,,,,,,,,,,,,,,,
2024-11-05 12:13:31 Hardware Reset,,,,,,,,,,,,,,,,
2024-11-05 12:13:53 Hardware Reset,,,,,,,,,,,,,,,,
2024-11-05 12:14:14 Hardware Reset,,,,,,,,,,,,,,,,
2024-11-05 12:14:35 Hardware Reset,,,,,,,,,,,,,,,,
2024-11-05 12:14:56 Hardware Reset,,,,,,,,,,,,,,,,
2024-11-05 12:15:17 Hardware Reset,,,,,,,,,,,,,,,,
2024-11-05 12:15:38 Hardware Reset,,,,,,,,,,,,,,,,
2024-11-05 12:15:59 Hardware Reset,,,,,,,,,,,,,,,,
2024-11-05 12:16:21 Hardware Reset,,,,,,,,,,,,,,,,
2024-11-05 12:16:42 Hardware Reset,,,,,,,,,,,,,,,,
2024-11-05 12:17:03 Hardware Reset,,,,,,,,,,,,,,,,
2024-11-05 12:17:24 Hardware Reset,,,,,,,,,,,,,,,,
2024-11-05 12:17:45 Hardware Reset,,,,,,,,,,,,,,,,
2024-11-05 12:18:06 Hardware Reset,,,,,,,,,,,,,,,,
2024-11-05 12:18:28 Hardware Reset,,,,,,,,,,,,,,,,
2024-11-05 12:18:49 Hardware Reset,,,,,,,,,,,,,,,,
2024-11-05 12:19:10 Hardware Reset,,,,,,,,,,,,,,,,
2024-11-05 12:19:31 Hardware Reset,,,,,,,,,,,,,,,,
2024-11-05 12:19:52 Hardware Reset,,,,,,,,,,,,,,,,
2024-11-05 12:20:13 Hardware Reset,,,,,,,,,,,,,,,,
2024-11-05 12:20:35 Hardware Reset,,,,,,,,,,,,,,,,
2024-11-05 12:20:56 Hardware Reset,,,,,,,,,,,,,,,,
2024-11-05 12:21:17 Hardware Reset,,,,,,,,,,,,,,,,
2024-11-05 12:21:38 Hardware Reset,,,,,,,,,,,,,,,,
2024-11-05 12:21:59 Hardware Reset,,,,,,,,,,,,,,,,
2024-11-05 12:22:21 Hardware Reset,,,,,,,,,,,,,,,,
2024-11-05 12:22:42 Hardware Reset,,,,,,,,,,,,,,,,
2024-11-05 12:23:03 Hardware Reset,,,,,,,,,,,,,,,,
2024-11-05 12:23:24 Hardware Reset,,,,,,,,,,,,,,,,
2024-11-05 12:23:45 Hardware Reset,,,,,,,,,,,,,,,,
2024-11-05 12:24:06 Hardware Reset,,,,,,,,,,,,,,,,
2024-11-05 12:24:28 Hardware Reset,,,,,,,,,,,,,,,,
2024-11-05 12:24:49 Hardware Reset,,,,,,,,,,,,,,,,
2024-11-05 12:25:10 Hardware Reset,,,,,,,,,,,,,,,,
2024-11-05 12:25:31 Hardware Reset,,,,,,,,,,,,,,,,
2024-11-05 12:25:52 Hardware Reset,,,,,,,,,,,,,,,,
2024-11-05 12:26:14 Hardware Reset,,,,,,,,,,,,,,,,
2024-11-05 12:26:35 Hardware Reset,,,,,,,,,,,,,,,,
2024-11-05 12:26:56 Hardware Reset,,,,,,,,,,,,,,,,
2024-11-05 12:27:17 Hardware Reset,,,,,,,,,,,,,,,,
2024-11-05 12:27:38 Hardware Reset,,,,,,,,,,,,,,,,
2024-11-05 12:28:00 Hardware Reset,,,,,,,,,,,,,,,,
2024-11-05 12:28:21 Hardware Reset,,,,,,,,,,,,,,,,
2024-11-05 12:28:42 Hardware Reset,,,,,,,,,,,,,,,,
2024-11-05 12:29:03 Hardware Reset,,,,,,,,,,,,,,,,
2024-11-05 12:29:24 Hardware Reset,,,,,,,,,,,,,,,,
2024-11-05 12:29:46 Hardware Reset,,,,,,,,,,,,,,,,
2024-11-05 12:30:07 Hardware Reset,,,,,,,,,,,,,,,,
2024-11-05 12:30:28 Hardware Reset,,,,,,,,,,,,,,,,
2024-11-05 12:30:49 Hardware Reset,,,,,,,,,,,,,,,,
2024-11-05 12:31:10 Hardware Reset,,,,,,,,,,,,,,,,
2024-11-05 12:31:32 Hardware Reset,,,,,,,,,,,,,,,,
2024-11-05 12:31:53 Hardware Reset,,,,,,,,,,,,,,,,
2024-11-05 12:32:14 Hardware Reset,,,,,,,,,,,,,,,,
2024-11-05 12:32:35 Hardware Reset,,,,,,,,,,,,,,,,
2024-11-05 12:32:56 Hardware Reset,,,,,,,,,,,,,,,,
2024-11-05 12:33:18 Hardware Reset,,,,,,,,,,,,,,,,
2024-11-05 12:33:39 Hardware Reset,,,,,,,,,,,,,,,,
2024-11-05 12:34:00 Hardware Reset,,,,,,,,,,,,,,,,
2024-11-05 12:34:21 Hardware Reset,,,,,,,,,,,,,,,,
2024-11-05 12:34:43 Hardware Reset,,,,,,,,,,,,,,,,
2024-11-05 12:35:04 Hardware Reset,,,,,,,,,,,,,,,,
2024-11-05 12:35:25 Hardware Reset,,,,,,,,,,,,,,,,
2024-11-05 12:35:46 Hardware Reset,,,,,,,,,,,,,,,,
2024-11-05 12:36:07 Hardware Reset,,,,,,,,,,,,,,,,
2024-11-05 12:36:29 Hardware Reset,,,,,,,,,,,,,,,,
2024-11-05 12:36:50 Hardware Reset,,,,,,,,,,,,,,,,
2024-11-05 12:37:11 Hardware Reset,,,,,,,,,,,,,,,,
2024-11-05 12:37:32 Hardware Reset,,,,,,,,,,,,,,,,
2024-11-05 12:37:54 Hardware Reset,,,,,,,,,,,,,,,,
2024-11-05 12:38:15 Hardware Reset,,,,,,,,,,,,,,,,
2024-11-05 12:38:36 Hardware Reset,,,,,,,,,,,,,,,,
2024-11-05 12:38:57 Hardware Reset,,,,,,,,,,,,,,,,
2024-11-05 12:39:19 Hardware Reset,,,,,,,,,,,,,,,,
2024-11-05 12:39:40 Hardware Reset,,,,,,,,,,,,,,,,
2024-11-05 12:40:01 Hardware Reset,,,,,,,,,,,,,,,,
2024-11-05 12:40:22 Hardware Reset,,,,,,,,,,,,,,,,
2024-11-05 12:40:44 Hardware Reset,,,,,,,,,,,,,,,,
2024-11-05 12:41:05 Hardware Reset,,,,,,,,,,,,,,,,
2024-11-05 12:41:26 Hardware Reset,,,,,,,,,,,,,,,,
2024-11-05 12:41:47 Hardware Reset,,,,,,,,,,,,,,,,
2024-11-05 12:42:08 Hardware Reset,,,,,,,,,,,,,,,,
2024-11-05 12:42:30 Hardware Reset,,,,,,,,,,,,,,,,
2024-11-05 12:42:51 Hardware Reset,,,,,,,,,,,,,,,,
2024-11-05 12:43:12 Hardware Reset,,,,,,,,,,,,,,,,
2024-11-05 12:43:33 Hardware Reset,,,,,,,,,,,,,,,,
2024-11-05 12:43:55 Hardware Reset,,,,,,,,,,,,,,,,
2024-11-05 12:44:16 Hardware Reset,,,,,,,,,,,,,,,,
2024-11-05 12:44:37 Hardware Reset,,,,,,,,,,,,,,,,
2024-11-05 12:44:59 Hardware Reset,,,,,,,,,,,,,,,,
2024-11-05 12:45:20 Hardware Reset,,,,,,,,,,,,,,,,
2024-11-05 12:45:41 Hardware Reset,,,,,,,,,,,,,,,,
2024-11-05 12:46:02 Hardware Reset,,,,,,,,,,,,,,,,
2024-11-05 12:46:24 Hardware Reset,,,,,,,,,,,,,,,,
2024-11-05 12:46:45 Hardware Reset,,,,,,,,,,,,,,,,
2024-11-05 12:47:06 Hardware Reset,,,,,,,,,,,,,,,,
2024-11-05 12:47:27 Hardware Reset,,,,,,,,,,,,,,,,
2024-11-05 12:47:49 Hardware Reset,,,,,,,,,,,,,,,,
2024-11-05 12:48:10 Hardware Reset,,,,,,,,,,,,,,,,
2024-11-05 12:48:31 Hardware Reset,,,,,,,,,,,,,,,,
2024-11-05 12:48:52 Hardware Reset,,,,,,,,,,,,,,,,
2024-11-05 12:49:14 Hardware Reset,,,,,,,,,,,,,,,,
2024-11-05 12:49:35 Hardware Reset,,,,,,,,,,,,,,,,
2024-11-05 12:49:56 Hardware Reset,,,,,,,,,,,,,,,,
2024-11-05 12:50:17 Hardware Reset,,,,,,,,,,,,,,,,
2024-11-05 12:50:39 Hardware Reset,,,,,,,,,,,,,,,,
2024-11-05 12:51:00 Hardware Reset,,,,,,,,,,,,,,,,
2024-11-05 12:51:21 Hardware Reset,,,,,,,,,,,,,,,,
2024-11-05 12:51:43 Hardware Reset,,,,,,,,,,,,,,,,
2024-11-05 12:52:04 Hardware Reset,,,,,,,,,,,,,,,,
2024-11-05 12:52:25 Hardware Reset,,,,,,,,,,,,,,,,
2024-11-05 12:52:46 Hardware Reset,,,,,,,,,,,,,,,,
2024-11-05 12:53:08 Hardware Reset,,,,,,,,,,,,,,,,
2024-11-05 12:53:29 Hardware Reset,,,,,,,,,,,,,,,,
2024-11-05 12:53:50 Hardware Reset,,,,,,,,,,,,,,,,
2024-11-05 12:54:12 Hardware Reset,,,,,,,,,,,,,,,,
2024-11-05 12:54:33 Hardware Reset,,,,,,,,,,,,,,,,
2024-11-05 12:54:54 Hardware Reset,,,,,,,,,,,,,,,,
2024-11-05 12:55:15 Hardware Reset,,,,,,,,,,,,,,,,
2024-11-05 12:55:37 Hardware Reset,,,,,,,,,,,,,,,,
2024-11-05 12:55:58 Hardware Reset,,,,,,,,,,,,,,,,
2024-11-05 12:56:19 Hardware Reset,,,,,,,,,,,,,,,,
2024-11-05 12:56:41 Hardware Reset,,,,,,,,,,,,,,,,
2024-11-05 12:57:02 Hardware Reset,,,,,,,,,,,,,,,,
2024-11-05 12:57:23 Hardware Reset,,,,,,,,,,,,,,,,
2024-11-05 12:57:45 Hardware Reset,,,,,,,,,,,,,,,,
2024-11-05 12:58:06 Hardware Reset,,,,,,,,,,,,,,,,
2024-11-05 12:58:27 Hardware Reset,,,,,,,,,,,,,,,,
2024-11-05 12:58:48 Hardware Reset,,,,,,,,,,,,,,,,
2024-11-05 12:59:10 Hardware Reset,,,,,,,,,,,,,,,,
2024-11-05 12:59:31 Hardware Reset,,,,,,,,,,,,,,,,
2024-11-05 13:00:11 Hardware Reset,,,,,,,,,,,,,,,,
2024-11-05 13:00:40 Hardware Reset,,,,,,,,,,,,,,,,
2024-11-05 13:01:09 Hardware Reset,,,,,,,,,,,,,,,,
2024-11-05 13:01:37 Hardware Reset,,,,,,,,,,,,,,,,
2025-02-04 11:20:03 Hardware Reset,,,,,,,,,,,,,,,,